File: MATLAB/DSC_Analysis/ExpAll_2023-07-03_NaNO3KNO3_ALassII_Hanke_100-300°.csv
#EXPORTTYPE:                 ;ALL
#FILE:                       ;2023-07-03_NaNO3KNO3_ALassII_Hanke_100-300›C_10Kxmin-1_2Zyklen_N2-20-20_Al-pierced.ngb-sd7
#FORMAT:                     ;NETZSCH5
#FTYPE:                      ;ASCII
#IDENTITY:                   ;2023-07-03
#DECIMAL:                    ;COMMA
#SEPARATOR:                  ;SEMICOLON
#MTYPE:                      ;DSC
#INSTRUMENT:                 ;NETZSCH DSC 204F1 Phoenix
#PROJECT:                    ;
#DATE/TIME:                  ;03.07.2023 15:11:31 (UTC+2)
#CORR. FILE:                 ;
#TEMPCAL:                    ;26-04-2022 07:47
#SENSITIVITY:                ;26-04-2022 07:40
#LABORATORY:                 ;H221
#OPERATOR:                   ;AH
#REMARK:                     ;Teststand: ALass II / 03.07.2023 Jonas Tombrink / Probe nach Erstbe?llung / 50:50 mol% NaNO3:KNO3 / 45,7:54,3 wt% NaNO3:NO3
#SAMPLE:                     ;NaNO3KNO3
#SAMPLE MASS /mg:            ;10,719
#MATERIAL:                   ;NaNO3KNO3
#REFERENCE:                  ;-----
#REFERENCE MASS /mg:         ;0
#TYPE OF CRUCIBLE:           ;Standard Al 25 ‘l, pierced lid
#SAMPLE CRUCIBLE MASS /mg:   ;39,961
#REFERENCE CRUCIBLE MASS /mg:;39,497
#PURGE 2 MFC:                ;NITROGEN,250,0 ml/min
#PROTECTIVE MFC:             ;NITROGEN,250,0 ml/min
#M.RANGE /‘V:                ;5000
#TAU-R:                      ;---
#CORR. CODE:                 ;000
#EXO:                        ;-1
#RANGE:                      ;25›C....300›C/-10,0....10,0K/min
#SEGMENT:                    ;S1-4/4
#SEG. 1:                     ;25›C/10,0(K/min)/300›C
#SEG. 2:                     ;300›C/10,0(K/min)/25›C
#SEG. 3:                     ;25›C/10,0(K/min)/300›C
#SEG. 4:                     ;300›C/10,0(K/min)/25›C

#*RESULTS:;File;Segment;Result;Unit;Y_value;Unit;Range_Xmin;Unit;Range_Xmax;Unit;Range_Ymin;Unit;Range_Ymax;Unit

##Temp./›C;Time/min;DSC/(mW/mg);Gas Flow(purge2)/(ml/min);Gas Flow(protective)/(ml/min);Sensit./(uV/mW);Segment
 24,81900;  0,00000; 2,233418e-02;22,00000;21,00000;3,86535;1
 25,57943;  0,12000; 3,139535e-03;22,00000;22,00000;3,86337;1
 26,84306;  0,24000;      0,10723;22,00000;21,00000;3,86006;1
 28,04180;  0,36000;      0,14187;22,00000;21,00000;3,85691;1
 29,23767;  0,48000;      0,15110;22,00000;21,00000;3,85377;1
 30,44131;  0,60000;      0,15528;22,00000;22,00000;3,85059;1
 31,64834;  0,72000;      0,15775;22,00000;22,00000;3,84739;1
 32,85909;  0,84000;      0,15911;22,00000;21,00000;3,84418;1
 34,07279;  0,96000;      0,15996;22,00000;22,00000;3,84095;1
 35,28736;  1,08000;      0,16088;22,00000;21,00000;3,83771;1
 36,50221;  1,20000;      0,16110;22,00000;21,00000;3,83445;1
 37,71825;  1,32000;      0,16182;22,00000;21,00000;3,83119;1
 38,93387;  1,44000;      0,16204;22,00000;22,00000;3,82792;1
 40,14985;  1,56000;      0,16230;22,00000;22,00000;3,82464;1
 41,36614;  1,68000;      0,16286;22,00000;21,00000;3,82135;1
 42,58312;  1,80000;      0,16296;22,00000;22,00000;3,81804;1
 43,80008;  1,92000;      0,16344;22,00000;21,00000;3,81473;1
 45,01699;  2,04000;      0,16358;22,00000;22,00000;3,81142;1
 46,23314;  2,16000;      0,16405;22,00000;21,00000;3,80809;1
 47,44845;  2,28000;      0,16411;22,00000;21,00000;3,80476;1
 48,66333;  2,40000;      0,16416;22,00000;21,00000;3,80142;1
 49,87760;  2,52000;      0,16452;22,00000;21,00000;3,79808;1
 51,09162;  2,64000;      0,16447;22,00000;21,00000;3,79473;1
 52,30581;  2,76000;      0,16480;22,00000;22,00000;3,79137;1
 53,51885;  2,88000;      0,16503;22,00000;22,00000;3,78801;1
 54,73221;  3,00000;      0,16516;22,00000;22,00000;3,78464;1
 55,94465;  3,12000;      0,16538;22,00000;21,00000;3,78126;1
 57,15575;  3,24000;      0,16536;22,00000;22,00000;3,77788;1
 58,36742;  3,36000;      0,16552;22,00000;21,00000;3,77449;1
 59,57958;  3,48000;      0,16591;22,00000;21,00000;3,77109;1
 60,79143;  3,60000;      0,16616;22,00000;22,00000;3,76768;1
 62,00225;  3,72000;      0,16636;22,00000;21,00000;3,76427;1
 63,21198;  3,84000;      0,16640;22,00000;22,00000;3,76086;1
 64,42224;  3,96000;      0,16658;22,00000;22,00000;3,75743;1
 65,63196;  4,08000;      0,16704;22,00000;22,00000;3,75401;1
 66,84093;  4,20000;      0,16721;22,00000;21,00000;3,75057;1
 68,04919;  4,32000;      0,16720;22,00000;22,00000;3,74713;1
 69,25704;  4,44000;      0,16763;22,00000;22,00000;3,74369;1
 70,46402;  4,56000;      0,16766;22,00000;22,00000;3,74024;1
 71,67069;  4,68000;      0,16788;22,00000;22,00000;3,73679;1
 72,87775;  4,80000;      0,16806;22,00000;21,00000;3,73333;1
 74,08456;  4,92000;      0,16828;22,00000;21,00000;3,72986;1
 75,29049;  5,04000;      0,16841;22,00000;22,00000;3,72639;1
 76,49617;  5,16000;      0,16863;22,00000;21,00000;3,72291;1
 77,70150;  5,28000;      0,16880;22,00000;21,00000;3,71943;1
 78,90667;  5,40000;      0,16885;22,00000;21,00000;3,71594;1
 80,11150;  5,52000;      0,16890;22,00000;22,00000;3,71245;1
 81,31606;  5,64000;      0,16916;22,00000;22,00000;3,70895;1
 82,52019;  5,76000;      0,16950;22,00000;21,00000;3,70545;1
 83,72371;  5,88000;      0,16983;22,00000;21,00000;3,70195;1
 84,92745;  6,00000;      0,16994;22,00000;21,00000;3,69843;1
 86,13121;  6,12000;      0,16999;22,00000;21,00000;3,69491;1
 87,33569;  6,24000;      0,17043;22,00000;21,00000;3,69139;1
 88,53981;  6,36000;      0,17076;22,00000;22,00000;3,68786;1
 89,74318;  6,48000;      0,17060;22,00000;22,00000;3,68432;1
 90,94632;  6,60000;      0,17087;22,00000;22,00000;3,68078;1
 92,14932;  6,72000;      0,17104;22,00000;22,00000;3,67724;1
 93,35336;  6,84000;      0,17141;22,00000;22,00000;3,67369;1
 94,55581;  6,96000;      0,17156;22,00000;21,00000;3,67013;1
 95,75807;  7,08000;      0,17170;22,00000;22,00000;3,66657;1
 96,96039;  7,20000;      0,17197;22,00000;22,00000;3,66301;1
 98,16292;  7,32000;      0,17226;22,00000;21,00000;3,65944;1
 99,36571;  7,44000;      0,17248;22,00000;21,00000;3,65587;1
100,56853;  7,56000;      0,17275;22,00000;22,00000;3,65229;1
101,77112;  7,68000;      0,17318;22,00000;22,00000;3,64870;1
102,97331;  7,80000;      0,17313;22,00000;22,00000;3,64512;1
104,17487;  7,92000;      0,17344;22,00000;21,00000;3,64153;1
105,37630;  8,04000;      0,17372;23,00000;22,00000;3,63793;1
106,57849;  8,16000;      0,17490;22,00000;22,00000;3,63433;1
107,78018;  8,28000;      0,18794;22,00000;22,00000;3,63073;1
108,98016;  8,40000;      0,30042;22,00000;21,00000;3,62712;1
110,17966;  8,52000;      0,53776;23,00000;22,00000;3,62352;1
111,38070;  8,64000;      0,70777;22,00000;21,00000;3,61990;1
112,58206;  8,76000;      0,76716;22,00000;22,00000;3,61628;1
113,78314;  8,88000;      0,75547;22,00000;22,00000;3,61266;1
114,98488;  9,00000;      0,71086;22,00000;21,00000;3,60903;1
116,18646;  9,12000;      0,65609;22,00000;21,00000;3,60539;1
117,38769;  9,24000;      0,59906;22,00000;22,00000;3,60176;1
118,58890;  9,36000;      0,54365;22,00000;22,00000;3,59812;1
119,79093;  9,48000;      0,49152;22,00000;22,00000;3,59447;1
120,99268;  9,60000;      0,44283;22,00000;22,00000;3,59082;1
122,19366;  9,72000;      0,39489;22,00000;21,00000;3,58717;1
123,39491;  9,84000;      0,34517;22,00000;22,00000;3,58351;1
124,59563;  9,96000;      0,29769;22,00000;21,00000;3,57985;1
125,79690; 10,08000;      0,26654;22,00000;22,00000;3,57619;1
126,99738; 10,20000;      0,25158;22,00000;22,00000;3,57253;1
128,19750; 10,32000;      0,24433;22,00000;21,00000;3,56886;1
129,39785; 10,44000;      0,24125;22,00000;20,00000;3,56519;1
130,59824; 10,56000;      0,23951;22,00000;21,00000;3,56151;1
131,79894; 10,68000;      0,23884;22,00000;22,00000;3,55784;1
132,99999; 10,80000;      0,23952;22,00000;22,00000;3,55415;1
134,20048; 10,92000;      0,24074;22,00000;22,00000;3,55047;1
135,40111; 11,04000;      0,24242;22,00000;21,00000;3,54678;1
136,60105; 11,16000;      0,24399;22,00000;22,00000;3,54309;1
137,80066; 11,28000;      0,24548;23,00000;21,00000;3,53940;1
139,00092; 11,40000;      0,24673;22,00000;22,00000;3,53571;1
140,20254; 11,52000;      0,24798;22,00000;22,00000;3,53200;1
141,40399; 11,64000;      0,24936;22,00000;22,00000;3,52830;1
142,60435; 11,76000;      0,25080;22,00000;22,00000;3,52460;1
143,80450; 11,88000;      0,25208;22,00000;21,00000;3,52089;1
145,00523; 12,00000;      0,25363;22,00000;21,00000;3,51718;1
146,20536; 12,12000;      0,25551;22,00000;21,00000;3,51347;1
147,40554; 12,24000;      0,25717;22,00000;22,00000;3,50975;1
148,60627; 12,36000;      0,25861;22,00000;22,00000;3,50604;1
149,80627; 12,48000;      0,25994;22,00000;21,00000;3,50232;1
151,00560; 12,60000;      0,26118;22,00000;22,00000;3,49860;1
152,20647; 12,72000;      0,26259;22,00000;22,00000;3,49487;1
153,40798; 12,84000;      0,26457;22,00000;22,00000;3,49114;1
154,60846; 12,96000;      0,26582;22,00000;21,00000;3,48741;1
155,80922; 13,08000;      0,26718;22,00000;21,00000;3,48368;1
157,00946; 13,20000;      0,26856;22,00000;22,00000;3,47995;1
158,20896; 13,32000;      0,26961;22,00000;21,00000;3,47622;1
159,40909; 13,44000;      0,27061;22,00000;21,00000;3,47248;1
160,60988; 13,56000;      0,27179;22,00000;22,00000;3,46874;1
161,81078; 13,68000;      0,27269;22,00000;22,00000;3,46500;1
163,01121; 13,80000;      0,27472;22,00000;22,00000;3,46125;1
164,21256; 13,92000;      0,27465;22,00000;21,00000;3,45751;1
165,41324; 14,04000;      0,27525;22,00000;22,00000;3,45376;1
166,61348; 14,16000;      0,27566;22,00000;22,00000;3,45001;1
167,81412; 14,28000;      0,27601;22,00000;21,00000;3,44626;1
169,01377; 14,40000;      0,27617;22,00000;22,00000;3,44251;1
170,21317; 14,52000;      0,27571;22,00000;22,00000;3,43876;1
171,41340; 14,64000;      0,27534;22,00000;21,00000;3,43501;1
172,61375; 14,76000;      0,27438;22,00000;21,00000;3,43125;1
173,81393; 14,88000;      0,27286;22,00000;22,00000;3,42750;1
175,01444; 15,00000;      0,27086;22,00000;21,00000;3,42374;1
176,21458; 15,12000;      0,26857;22,00000;21,00000;3,41998;1
177,41549; 15,24000;      0,26523;22,00000;21,00000;3,41622;1
178,61616; 15,36000;      0,26148;22,00000;21,00000;3,41245;1
179,81618; 15,48000;      0,25641;22,00000;21,00000;3,40869;1
181,01641; 15,60000;      0,25102;22,00000;22,00000;3,40493;1
182,21674; 15,72000;      0,24475;22,00000;21,00000;3,40116;1
183,41631; 15,84000;      0,23749;23,00000;21,00000;3,39740;1
184,61623; 15,96000;      0,23065;22,00000;22,00000;3,39363;1
185,81598; 16,08000;      0,22392;22,00000;21,00000;3,38987;1
187,01555; 16,20000;      0,21756;22,00000;22,00000;3,38610;1
188,21478; 16,32000;      0,21188;22,00000;22,00000;3,38233;1
189,41512; 16,44000;      0,20749;22,00000;22,00000;3,37856;1
190,61634; 16,56000;      0,20463;22,00000;21,00000;3,37479;1
191,81650; 16,68000;      0,20222;22,00000;22,00000;3,37102;1
193,01635; 16,80000;      0,20073;22,00000;22,00000;3,36725;1
194,21652; 16,92000;      0,19950;22,00000;21,00000;3,36347;1
195,41696; 17,04000;      0,19861;22,00000;22,00000;3,35970;1
196,61722; 17,16000;      0,19806;22,00000;21,00000;3,35592;1
197,81717; 17,28000;      0,19737;22,00000;21,00000;3,35215;1
199,01746; 17,40000;      0,19682;22,00000;21,00000;3,34837;1
200,21780; 17,52000;      0,19665;22,00000;21,00000;3,34460;1
201,41724; 17,64000;      0,19628;22,00000;21,00000;3,34082;1
202,61725; 17,76000;      0,19570;22,00000;22,00000;3,33705;1
203,81724; 17,88000;      0,19565;22,00000;21,00000;3,33327;1
205,01623; 18,00000;      0,19518;22,00000;22,00000;3,32950;1
206,21501; 18,12000;      0,19438;22,00000;22,00000;3,32573;1
207,41516; 18,24000;      0,19424;22,00000;22,00000;3,32195;1
208,61608; 18,36000;      0,19454;22,00000;22,00000;3,31817;1
209,81770; 18,48000;      0,19464;22,00000;22,00000;3,31439;1
211,01923; 18,60000;      0,19483;22,00000;21,00000;3,31061;1
212,21911; 18,72000;      0,19467;22,00000;22,00000;3,30683;1
213,41830; 18,84000;      0,19451;22,00000;22,00000;3,30306;1
214,61791; 18,96000;      0,19431;22,00000;22,00000;3,29928;1
215,81769; 19,08000;      0,19465;22,00000;22,00000;3,29550;1
217,01826; 19,20000;      0,20183;22,00000;22,00000;3,29172;1
218,21896; 19,32000;      0,23192;22,00000;22,00000;3,28795;1
219,41876; 19,44000;      0,28690;22,00000;22,00000;3,28417;1
220,61770; 19,56000;      0,35424;22,00000;21,00000;3,28040;1
221,81652; 19,68000;      0,54501;22,00000;21,00000;3,27663;1
223,01202; 19,80000;      1,29205;22,00000;21,00000;3,27286;1
224,20651; 19,92000;      2,26697;22,00000;22,00000;3,26911;1
225,40226; 20,04000;      3,33233;22,00000;21,00000;3,26534;1
226,60380; 20,16000;      3,36941;22,00000;21,00000;3,26157;1
227,80993; 20,28000;      2,81180;22,00000;21,00000;3,25777;1
229,01805; 20,40000;      1,18548;22,00000;21,00000;3,25397;1
230,22149; 20,52000;      0,46072;22,00000;22,00000;3,25019;1
231,42164; 20,64000;      0,27249;22,00000;22,00000;3,24642;1
232,62192; 20,76000;      0,22448;22,00000;22,00000;3,24264;1
233,82226; 20,88000;      0,21232;22,00000;22,00000;3,23887;1
235,02160; 21,00000;      0,20852;22,00000;22,00000;3,23510;1
236,22093; 21,12000;      0,20697;22,00000;22,00000;3,23133;1
237,42197; 21,24000;      0,20696;22,00000;21,00000;3,22756;1
238,62322; 21,36000;      0,20699;22,00000;22,00000;3,22379;1
239,82293; 21,48000;      0,20635;22,00000;22,00000;3,22002;1
241,02273; 21,60000;      0,20607;22,00000;21,00000;3,21625;1
242,22312; 21,72000;      0,20564;22,00000;21,00000;3,21249;1
243,42311; 21,84000;      0,20555;22,00000;21,00000;3,20872;1
244,62330; 21,96000;      0,20505;23,00000;22,00000;3,20496;1
245,82416; 22,08000;      0,20505;22,00000;21,00000;3,20119;1
247,02477; 22,20000;      0,20495;22,00000;21,00000;3,19742;1
248,22480; 22,32000;      0,20469;22,00000;21,00000;3,19366;1
249,42418; 22,44000;      0,20371;22,00000;22,00000;3,18990;1
250,62356; 22,56000;      0,20338;22,00000;21,00000;3,18614;1
251,82393; 22,68000;      0,20327;22,00000;21,00000;3,18238;1
253,02448; 22,80000;      0,20307;22,00000;22,00000;3,17862;1
254,22475; 22,92000;      0,20282;22,00000;21,00000;3,17487;1
255,42569; 23,04000;      0,20265;22,00000;22,00000;3,17111;1
256,62603; 23,16000;      0,20233;22,00000;21,00000;3,16735;1
257,82602; 23,28000;      0,20198;22,00000;21,00000;3,16360;1
259,02587; 23,40000;      0,20150;22,00000;21,00000;3,15985;1
260,22549; 23,52000;      0,20135;22,00000;21,00000;3,15610;1
261,42445; 23,64000;      0,20071;22,00000;21,00000;3,15235;1
262,62468; 23,76000;      0,20049;22,00000;21,00000;3,14860;1
263,82568; 23,88000;      0,20067;22,00000;22,00000;3,14485;1
265,02631; 24,00000;      0,20076;22,00000;22,00000;3,14110;1
266,22666; 24,12000;      0,20014;22,00000;22,00000;3,13735;1
267,42641; 24,24000;      0,19989;22,00000;21,00000;3,13361;1
268,62618; 24,36000;      0,19939;22,00000;21,00000;3,12987;1
269,82639; 24,48000;      0,19948;22,00000;21,00000;3,12613;1
271,02612; 24,60000;      0,19904;22,00000;22,00000;3,12239;1
272,22616; 24,72000;      0,19908;22,00000;22,00000;3,11865;1
273,42631; 24,84000;      0,19874;22,00000;21,00000;3,11491;1
274,62616; 24,96000;      0,19821;22,00000;21,00000;3,11118;1
275,82641; 25,08000;      0,19823;22,00000;22,00000;3,10745;1
277,02552; 25,20000;      0,19756;22,00000;22,00000;3,10372;1
278,22521; 25,32000;      0,19734;22,00000;22,00000;3,09999;1
279,42526; 25,44000;      0,19738;22,00000;21,00000;3,09626;1
280,62543; 25,56000;      0,19703;22,00000;22,00000;3,09253;1
281,82593; 25,68000;      0,19723;22,00000;22,00000;3,08880;1
283,02549; 25,80000;      0,19665;22,00000;22,00000;3,08508;1
284,22460; 25,92000;      0,19602;22,00000;21,00000;3,08136;1
285,42370; 26,04000;      0,19557;22,00000;22,00000;3,07764;1
286,62388; 26,16000;      0,19563;22,00000;22,00000;3,07392;1
287,82479; 26,28000;      0,19588;22,00000;21,00000;3,07020;1
289,02509; 26,40000;      0,19545;22,00000;21,00000;3,06648;1
290,22454; 26,52000;      0,19479;22,00000;22,00000;3,06277;1
291,42360; 26,64000;      0,19422;22,00000;21,00000;3,05906;1
292,62391; 26,76000;      0,19444;22,00000;21,00000;3,05534;1
293,82483; 26,88000;      0,19438;22,00000;22,00000;3,05163;1
295,02554; 27,00000;      0,19461;22,00000;22,00000;3,04792;1
296,22531; 27,12000;      0,19427;22,00000;22,00000;3,04422;1
297,42496; 27,24000;      0,19391;22,00000;22,00000;3,04051;1
298,62534; 27,36000;      0,19415;22,00000;22,00000;3,03681;1
299,82505; 27,48000;      0,19362;22,00000;21,00000;3,03311;1
300,18381; 27,60000;      0,18530;22,00000;22,00000;3,03200;2
299,11044; 27,72000;     -0,15014;22,00000;22,00000;3,03531;2
297,79817; 27,84000;     -0,27056;22,00000;21,00000;3,03936;2
296,53321; 27,96000;     -0,28815;22,00000;21,00000;3,04327;2
295,25891; 28,08000;     -0,29445;22,00000;22,00000;3,04720;2
293,98928; 28,20000;     -0,29526;22,00000;22,00000;3,05112;2
292,72290; 28,32000;     -0,29467;22,00000;22,00000;3,05504;2
291,46003; 28,44000;     -0,29370;22,00000;22,00000;3,05894;2
290,20013; 28,56000;     -0,29300;22,00000;22,00000;3,06284;2
288,94396; 28,68000;     -0,29244;22,00000;22,00000;3,06673;2
287,69193; 28,80000;     -0,29169;22,00000;21,00000;3,07061;2
286,44384; 28,92000;     -0,29113;22,00000;21,00000;3,07448;2
285,19953; 29,04000;     -0,29011;22,00000;22,00000;3,07833;2
283,95846; 29,16000;     -0,28900;22,00000;22,00000;3,08218;2
282,71989; 29,28000;     -0,28829;22,00000;22,00000;3,08603;2
281,48327; 29,40000;     -0,28801;22,00000;22,00000;3,08986;2
280,24929; 29,52000;     -0,28751;22,00000;21,00000;3,09370;2
279,01828; 29,64000;     -0,28675;22,00000;22,00000;3,09752;2
277,79060; 29,76000;     -0,28556;22,00000;22,00000;3,10134;2
276,56499; 29,88000;     -0,28435;22,00000;22,00000;3,10515;2
275,34026; 30,00000;     -0,28374;22,00000;22,00000;3,10896;2
274,11705; 30,12000;     -0,28359;22,00000;22,00000;3,11276;2
272,89621; 30,24000;     -0,28294;22,00000;21,00000;3,11657;2
271,67622; 30,36000;     -0,28219;22,00000;21,00000;3,12036;2
270,45757; 30,48000;     -0,28200;22,00000;22,00000;3,12416;2
269,24087; 30,60000;     -0,28112;22,00000;22,00000;3,12795;2
268,02465; 30,72000;     -0,28068;22,00000;22,00000;3,13175;2
266,80986; 30,84000;     -0,28008;22,00000;22,00000;3,13554;2
265,59559; 30,96000;     -0,27950;22,00000;22,00000;3,13932;2
264,38188; 31,08000;     -0,27963;22,00000;21,00000;3,14311;2
263,17046; 31,20000;     -0,27874;22,00000;21,00000;3,14690;2
261,95998; 31,32000;     -0,27803;22,00000;21,00000;3,15068;2
260,74950; 31,44000;     -0,27746;22,00000;22,00000;3,15446;2
259,53874; 31,56000;     -0,27736;22,00000;22,00000;3,15824;2
258,32936; 31,68000;     -0,27711;22,00000;22,00000;3,16202;2
257,12060; 31,80000;     -0,27681;22,00000;21,00000;3,16580;2
255,91269; 31,92000;     -0,27642;22,00000;21,00000;3,16958;2
254,70510; 32,04000;     -0,27619;22,00000;22,00000;3,17336;2
253,49806; 32,16000;     -0,27590;22,00000;22,00000;3,17714;2
252,29145; 32,28000;     -0,27531;22,00000;21,00000;3,18092;2
251,08502; 32,40000;     -0,27504;22,00000;21,00000;3,18470;2
249,87904; 32,52000;     -0,27497;22,00000;21,00000;3,18848;2
248,67350; 32,64000;     -0,27467;22,00000;21,00000;3,19226;2
247,46867; 32,76000;     -0,27414;22,00000;22,00000;3,19603;2
246,26392; 32,88000;     -0,27369;22,00000;22,00000;3,19981;2
245,05913; 33,00000;     -0,27349;22,00000;22,00000;3,20359;2
243,85495; 33,12000;     -0,27313;22,00000;22,00000;3,20737;2
242,65183; 33,24000;     -0,27264;22,00000;22,00000;3,21114;2
241,44939; 33,36000;     -0,27186;22,00000;21,00000;3,21492;2
240,24676; 33,48000;     -0,27149;22,00000;22,00000;3,21869;2
239,04293; 33,60000;     -0,27113;22,00000;21,00000;3,22247;2
237,83894; 33,72000;     -0,27144;22,00000;21,00000;3,22625;2
236,63526; 33,84000;     -0,27127;22,00000;22,00000;3,23003;2
235,43273; 33,96000;     -0,27094;22,00000;22,00000;3,23381;2
234,23107; 34,08000;     -0,26988;22,00000;22,00000;3,23759;2
233,02880; 34,20000;     -0,26922;22,00000;22,00000;3,24136;2
231,82539; 34,32000;     -0,26936;22,00000;21,00000;3,24515;2
230,62214; 34,44000;     -0,26916;22,00000;22,00000;3,24893;2
229,41964; 34,56000;     -0,26895;22,00000;22,00000;3,25271;2
228,21778; 34,68000;     -0,26851;22,00000;21,00000;3,25649;2
227,01700; 34,80000;     -0,26793;22,00000;22,00000;3,26027;2
225,81651; 34,92000;     -0,26708;22,00000;22,00000;3,26404;2
224,61531; 35,04000;     -0,26682;22,00000;22,00000;3,26782;2
223,41373; 35,16000;     -0,26678;22,00000;21,00000;3,27160;2
222,21121; 35,28000;     -0,26688;22,00000;22,00000;3,27538;2
221,00923; 35,40000;     -0,26658;22,00000;22,00000;3,27917;2
219,80859; 35,52000;     -0,26600;22,00000;22,00000;3,28294;2
218,61257; 35,64000;     -0,67119;22,00000;22,00000;3,28671;2
217,41931; 35,76000;     -2,24210;22,00000;21,00000;3,29046;2
216,21962; 35,88000;     -2,70928;22,00000;22,00000;3,29424;2
215,01754; 36,00000;     -2,75150;22,00000;22,00000;3,29802;2
213,81566; 36,12000;     -2,59449;22,00000;22,00000;3,30180;2
212,61202; 36,24000;     -2,19626;22,00000;21,00000;3,30559;2
211,40552; 36,36000;     -1,37518;22,00000;21,00000;3,30939;2
210,20043; 36,48000;     -0,62055;22,00000;21,00000;3,31318;2
208,99838; 36,60000;     -0,38416;22,00000;21,00000;3,31697;2
207,79750; 36,72000;     -0,31677;22,00000;22,00000;3,32075;2
206,59726; 36,84000;     -0,29490;22,00000;22,00000;3,32452;2
205,39673; 36,96000;     -0,28223;22,00000;22,00000;3,32830;2
204,19634; 37,08000;     -0,26956;22,00000;22,00000;3,33208;2
202,99542; 37,20000;     -0,25961;22,00000;21,00000;3,33586;2
201,79494; 37,32000;     -0,25313;22,00000;21,00000;3,33964;2
200,59496; 37,44000;     -0,24925;22,00000;21,00000;3,34341;2
199,39468; 37,56000;     -0,24621;22,00000;22,00000;3,34719;2
198,19341; 37,68000;     -0,24465;22,00000;22,00000;3,35097;2
196,99327; 37,80000;     -0,24290;22,00000;22,00000;3,35474;2
195,79357; 37,92000;     -0,24109;22,00000;21,00000;3,35851;2
194,59260; 38,04000;     -0,24044;22,00000;21,00000;3,36229;2
193,39068; 38,16000;     -0,23972;22,00000;21,00000;3,36607;2
192,19011; 38,28000;     -0,23872;22,00000;21,00000;3,36984;2
190,99049; 38,40000;     -0,23766;22,00000;21,00000;3,37361;2
189,79068; 38,52000;     -0,23645;22,00000;22,00000;3,37738;2
188,59054; 38,64000;     -0,23620;22,00000;22,00000;3,38115;2
187,38964; 38,76000;     -0,23563;22,00000;22,00000;3,38492;2
186,18901; 38,88000;     -0,23518;22,00000;21,00000;3,38870;2
184,98956; 39,00000;     -0,23432;22,00000;21,00000;3,39246;2
183,78997; 39,12000;     -0,23384;22,00000;21,00000;3,39623;2
182,59004; 39,24000;     -0,23317;22,00000;22,00000;3,39999;2
181,38912; 39,36000;     -0,23319;22,00000;21,00000;3,40376;2
180,18731; 39,48000;     -0,23311;22,00000;22,00000;3,40753;2
178,98714; 39,60000;     -0,23251;22,00000;21,00000;3,41129;2
177,78783; 39,72000;     -0,23120;22,00000;21,00000;3,41505;2
176,58844; 39,84000;     -0,23066;22,00000;21,00000;3,41881;2
175,38819; 39,96000;     -0,22995;22,00000;21,00000;3,42257;2
174,18768; 40,08000;     -0,23052;22,00000;22,00000;3,42633;2
172,98819; 40,20000;     -0,23009;22,00000;21,00000;3,43008;2
171,78923; 40,32000;     -0,22887;22,00000;22,00000;3,43383;2
170,58904; 40,44000;     -0,22786;22,00000;21,00000;3,43759;2
169,38699; 40,56000;     -0,22760;22,00000;22,00000;3,44135;2
168,18707; 40,68000;     -0,22660;22,00000;22,00000;3,44510;2
166,98853; 40,80000;     -0,22543;22,00000;21,00000;3,44884;2
165,78945; 40,92000;     -0,22468;22,00000;21,00000;3,45259;2
164,58854; 41,04000;     -0,22445;22,00000;22,00000;3,45633;2
163,38796; 41,16000;     -0,22431;22,00000;21,00000;3,46008;2
162,18929; 41,28000;     -0,22348;22,00000;21,00000;3,46382;2
160,99053; 41,40000;     -0,22331;22,00000;21,00000;3,46755;2
159,79034; 41,52000;     -0,22234;22,00000;22,00000;3,47129;2
158,58975; 41,64000;     -0,22168;22,00000;21,00000;3,47503;2
157,38883; 41,76000;     -0,22127;22,00000;22,00000;3,47877;2
156,18726; 41,88000;     -0,22075;22,00000;22,00000;3,48251;2
154,98550; 42,00000;     -0,22073;22,00000;21,00000;3,48624;2
153,78501; 42,12000;     -0,22009;22,00000;21,00000;3,48997;2
152,58579; 42,24000;     -0,21903;22,00000;22,00000;3,49369;2
151,38618; 42,36000;     -0,21844;22,00000;22,00000;3,49742;2
150,18536; 42,48000;     -0,21815;22,00000;22,00000;3,50114;2
148,98395; 42,60000;     -0,21795;22,00000;21,00000;3,50487;2
147,78398; 42,72000;     -0,21744;22,00000;22,00000;3,50858;2
146,58432; 42,84000;     -0,21647;22,00000;22,00000;3,51229;2
145,38372; 42,96000;     -0,21605;22,00000;22,00000;3,51601;2
144,18464; 43,08000;     -0,21538;22,00000;22,00000;3,51971;2
142,98650; 43,20000;     -0,21431;22,00000;21,00000;3,52342;2
141,78697; 43,32000;     -0,21375;22,00000;22,00000;3,52712;2
140,58643; 43,44000;     -0,21362;22,00000;22,00000;3,53082;2
139,38593; 43,56000;     -0,21312;22,00000;22,00000;3,53452;2
138,18631; 43,68000;     -0,21228;22,00000;22,00000;3,53822;2
136,98614; 43,80000;     -0,21187;22,00000;22,00000;3,54191;2
135,78718; 43,92000;     -0,21121;22,00000;21,00000;3,54560;2
134,58862; 44,04000;     -0,21072;22,00000;21,00000;3,54928;2
133,38879; 44,16000;     -0,21061;22,00000;22,00000;3,55296;2
132,18939; 44,28000;     -0,20974;22,00000;21,00000;3,55664;2
130,99073; 44,40000;     -0,20827;22,00000;21,00000;3,56031;2
129,78996; 44,52000;     -0,20777;22,00000;22,00000;3,56399;2
128,58911; 44,64000;     -0,20764;22,00000;22,00000;3,56766;2
127,38955; 44,76000;     -0,20674;22,00000;22,00000;3,57133;2
126,19002; 44,88000;     -0,20610;22,00000;22,00000;3,57499;2
124,99015; 45,00000;     -0,20546;22,00000;22,00000;3,57865;2
123,78917; 45,12000;     -0,20605;22,00000;22,00000;3,58231;2
122,58815; 45,24000;     -0,20507;22,00000;22,00000;3,58597;2
121,38847; 45,36000;     -0,20398;22,00000;22,00000;3,58962;2
120,18884; 45,48000;     -0,20297;22,00000;21,00000;3,59326;2
118,98898; 45,60000;     -0,20245;22,00000;21,00000;3,59690;2
117,78856; 45,72000;     -0,20309;22,00000;22,00000;3,60054;2
116,58812; 45,84000;     -0,20165;22,00000;21,00000;3,60418;2
115,38667; 45,96000;     -0,20143;22,00000;21,00000;3,60781;2
114,18763; 46,08000;     -0,20064;22,00000;21,00000;3,61144;2
112,98858; 46,20000;     -0,20014;22,00000;21,00000;3,61505;2
111,78845; 46,32000;     -0,19947;22,00000;22,00000;3,61867;2
110,58841; 46,44000;     -0,19912;22,00000;22,00000;3,62229;2
109,38675; 46,56000;     -0,19891;22,00000;21,00000;3,62590;2
108,18564; 46,68000;     -0,19868;22,00000;21,00000;3,62951;2
106,98641; 46,80000;     -0,19769;22,00000;21,00000;3,63311;2
105,78708; 46,92000;     -0,19750;23,00000;21,00000;3,63670;2
104,58869; 47,04000;     -0,19683;22,00000;22,00000;3,64029;2
103,38858; 47,16000;     -0,19686;22,00000;22,00000;3,64388;2
102,18767; 47,28000;     -0,19694;22,00000;21,00000;3,64746;2
100,98779; 47,40000;     -0,19666;22,00000;21,00000;3,65104;2
 99,78844; 47,52000;     -0,19702;22,00000;21,00000;3,65461;2
 98,58829; 47,64000;     -0,19789;22,00000;22,00000;3,65818;2
 97,38652; 47,76000;     -0,19984;22,00000;21,00000;3,66175;2
 96,18546; 47,88000;     -0,20498;22,00000;22,00000;3,66531;2
 94,98598; 48,00000;     -0,22599;22,00000;22,00000;3,66886;2
 93,78602; 48,12000;     -0,24997;22,00000;22,00000;3,67241;2
 92,58606; 48,24000;     -0,24869;22,00000;21,00000;3,67595;2
 91,38626; 48,36000;     -0,23799;22,00000;21,00000;3,67949;2
 90,18757; 48,48000;     -0,22938;22,00000;22,00000;3,68301;2
 88,98784; 48,60000;     -0,22226;22,00000;21,00000;3,68654;2
 87,78810; 48,72000;     -0,21646;22,00000;22,00000;3,69006;2
 86,58915; 48,84000;     -0,21216;22,00000;21,00000;3,69357;2
 85,38963; 48,96000;     -0,20769;22,00000;22,00000;3,69708;2
 84,18920; 49,08000;     -0,20398;22,00000;22,00000;3,70059;2
 82,98910; 49,20000;     -0,20063;22,00000;22,00000;3,70409;2
 81,78871; 49,32000;     -0,19816;23,00000;22,00000;3,70758;2
 80,58959; 49,44000;     -0,19501;22,00000;22,00000;3,71106;2
 79,39001; 49,56000;     -0,19230;22,00000;22,00000;3,71454;2
 78,18943; 49,68000;     -0,18995;22,00000;22,00000;3,71802;2
 76,98877; 49,80000;     -0,18733;22,00000;22,00000;3,72149;2
 75,78887; 49,92000;     -0,18510;22,00000;22,00000;3,72495;2
 74,58892; 50,04000;     -0,18295;22,00000;22,00000;3,72841;2
 73,38788; 50,16000;     -0,18086;22,00000;21,00000;3,73186;2
 72,18821; 50,28000;     -0,18291;22,00000;22,00000;3,73531;2
 70,98910; 50,40000;     -0,17938;22,00000;22,00000;3,73874;2
 69,78910; 50,52000;     -0,17689;22,00000;21,00000;3,74217;2
 68,58896; 50,64000;     -0,17491;22,00000;21,00000;3,74560;2
 67,38853; 50,76000;     -0,17335;22,00000;21,00000;3,74902;2
 66,18984; 50,88000;     -0,17167;22,00000;21,00000;3,75242;2
 64,99050; 51,00000;     -0,17008;22,00000;22,00000;3,75582;2
 63,78992; 51,12000;     -0,16897;22,00000;21,00000;3,75922;2
 62,58949; 51,24000;     -0,16733;22,00000;22,00000;3,76261;2
 61,39053; 51,36000;     -0,16594;22,00000;22,00000;3,76599;2
 60,19120; 51,48000;     -0,16445;22,00000;21,00000;3,76937;2
 58,98963; 51,60000;     -0,16345;22,00000;22,00000;3,77274;2
 57,78921; 51,72000;     -0,16244;22,00000;21,00000;3,77610;2
 56,59012; 51,84000;     -0,16106;22,00000;21,00000;3,77946;2
 55,38960; 51,96000;     -0,15980;22,00000;21,00000;3,78280;2
 54,18815; 52,08000;     -0,15901;22,00000;22,00000;3,78615;2
 52,98736; 52,20000;     -0,15760;22,00000;22,00000;3,78948;2
 51,78798; 52,32000;     -0,15613;22,00000;22,00000;3,79280;2
 50,58789; 52,44000;     -0,15488;22,00000;22,00000;3,79612;2
 49,38736; 52,56000;     -0,15365;22,00000;21,00000;3,79943;2
 48,18733; 52,68000;     -0,15257;22,00000;22,00000;3,80273;2
 46,98905; 52,80000;     -0,15111;22,00000;21,00000;3,80602;2
 45,79050; 52,92000;     -0,15346;22,00000;22,00000;3,80930;2
 44,58952; 53,04000;     -0,15180;22,00000;21,00000;3,81258;2
 43,38938; 53,16000;     -0,15054;22,00000;22,00000;3,81585;2
 42,19031; 53,28000;     -0,14887;22,00000;21,00000;3,81911;2
 40,98992; 53,40000;     -0,14805;22,00000;21,00000;3,82236;2
 39,78897; 53,52000;     -0,14728;22,00000;21,00000;3,82561;2
 38,58968; 53,64000;     -0,14608;22,00000;22,00000;3,82885;2
 37,39132; 53,76000;     -0,14481;22,00000;21,00000;3,83207;2
 36,19160; 53,88000;     -0,14368;22,00000;22,00000;3,83529;2
 34,99093; 54,00000;     -0,14294;22,00000;22,00000;3,83850;2
 33,79015; 54,12000;     -0,14195;22,00000;21,00000;3,84170;2
 32,59029; 54,24000;     -0,14105;22,00000;22,00000;3,84489;2
 31,39189; 54,36000;     -0,13975;22,00000;21,00000;3,84807;2
 30,19178; 54,48000;     -0,13861;22,00000;21,00000;3,85125;2
 28,99081; 54,60000;     -0,13791;22,00000;22,00000;3,85442;2
 27,79193; 54,72000;     -0,13650;22,00000;22,00000;3,85757;2
 26,59370; 54,84000;     -0,13523;22,00000;22,00000;3,86071;2
 25,39382; 54,96000;     -0,13428;22,00000;22,00000;3,86385;2
 24,97827; 55,08000;     -0,12941;22,00000;21,00000;3,86494;3
 26,22238; 55,20000; 7,145571e-02;22,00000;21,00000;3,86169;3
 27,45206; 55,32000;      0,14664;22,00000;22,00000;3,85846;3
 28,62225; 55,44000;      0,16093;22,00000;21,00000;3,85539;3
 29,81338; 55,56000;      0,16793;22,00000;21,00000;3,85225;3
 31,01270; 55,68000;      0,17173;22,00000;22,00000;3,84908;3
 32,21680; 55,80000;      0,17377;22,00000;21,00000;3,84589;3
 33,42766; 55,92000;      0,17556;22,00000;21,00000;3,84267;3
 34,64326; 56,04000;      0,17709;22,00000;21,00000;3,83943;3
 35,86010; 56,16000;      0,17776;22,00000;21,00000;3,83617;3
 37,07831; 56,28000;      0,17870;22,00000;22,00000;3,83291;3
 38,30057; 56,40000;      0,17959;22,00000;21,00000;3,82962;3
 39,52351; 56,52000;      0,18045;22,00000;22,00000;3,82633;3
 40,74633; 56,64000;      0,18085;22,00000;22,00000;3,82302;3
 41,96896; 56,76000;      0,18113;23,00000;20,00000;3,81971;3
 43,19298; 56,88000;      0,18162;22,00000;21,00000;3,81639;3
 44,41718; 57,00000;      0,18235;23,00000;22,00000;3,81305;3
 45,64017; 57,12000;      0,18265;22,00000;22,00000;3,80971;3
 46,86192; 57,24000;      0,18291;22,00000;21,00000;3,80637;3
 48,08362; 57,36000;      0,18310;22,00000;21,00000;3,80302;3
 49,30537; 57,48000;      0,18376;22,00000;22,00000;3,79966;3
 50,52662; 57,60000;      0,18414;22,00000;22,00000;3,79629;3
 51,74762; 57,72000;      0,18454;22,00000;22,00000;3,79292;3
 52,96914; 57,84000;      0,18499;22,00000;21,00000;3,78953;3
 54,19138; 57,96000;      0,18556;22,00000;22,00000;3,78614;3
 55,41058; 58,08000;      0,18563;22,00000;22,00000;3,78275;3
 56,62798; 58,20000;      0,18580;22,00000;21,00000;3,77935;3
 57,84569; 58,32000;      0,18615;22,00000;21,00000;3,77595;3
 59,06211; 58,44000;      0,18648;22,00000;22,00000;3,77254;3
 60,27766; 58,56000;      0,18679;22,00000;22,00000;3,76913;3
 61,49581; 58,68000;      0,18772;22,00000;21,00000;3,76570;3
 62,71234; 58,80000;      0,18830;22,00000;22,00000;3,76227;3
 63,92592; 58,92000;      0,18826;22,00000;22,00000;3,75884;3
 65,13907; 59,04000;      0,18874;22,00000;21,00000;3,75540;3
 66,35328; 59,16000;      0,18957;22,00000;22,00000;3,75196;3
 67,56573; 59,28000;      0,19032;22,00000;22,00000;3,74851;3
 68,77773; 59,40000;      0,19073;22,00000;22,00000;3,74506;3
 69,98966; 59,52000;      0,19153;22,00000;22,00000;3,74160;3
 71,20070; 59,64000;      0,19215;22,00000;22,00000;3,73814;3
 72,41121; 59,76000;      0,19283;22,00000;22,00000;3,73467;3
 73,62052; 59,88000;      0,19369;22,00000;22,00000;3,73120;3
 74,82974; 60,00000;      0,19422;22,00000;21,00000;3,72772;3
 76,03921; 60,12000;      0,19560;22,00000;21,00000;3,72423;3
 77,24664; 60,24000;      0,19629;22,00000;21,00000;3,72075;3
 78,45389; 60,36000;      0,19721;22,00000;21,00000;3,71726;3
 79,66198; 60,48000;      0,19867;22,00000;22,00000;3,71376;3
 80,86924; 60,60000;      0,19984;22,00000;21,00000;3,71025;3
 82,07483; 60,72000;      0,20100;22,00000;22,00000;3,70675;3
 83,28133; 60,84000;      0,20241;22,00000;21,00000;3,70324;3
 84,48947; 60,96000;      0,20463;22,00000;21,00000;3,69971;3
 85,69511; 61,08000;      0,20633;22,00000;22,00000;3,69619;3
 86,89948; 61,20000;      0,20795;22,00000;21,00000;3,69267;3
 88,10485; 61,32000;      0,21053;22,00000;21,00000;3,68913;3
 89,31002; 61,44000;      0,21334;22,00000;22,00000;3,68559;3
 90,51502; 61,56000;      0,21599;22,00000;22,00000;3,68205;3
 91,72025; 61,68000;      0,21944;22,00000;21,00000;3,67850;3
 92,92386; 61,80000;      0,22425;22,00000;21,00000;3,67495;3
 94,12838; 61,92000;      0,22907;22,00000;22,00000;3,67140;3
 95,33379; 62,04000;      0,23671;23,00000;21,00000;3,66783;3
 96,53688; 62,16000;      0,24682;22,00000;21,00000;3,66427;3
 97,73971; 62,28000;      0,25695;22,00000;22,00000;3,66070;3
 98,94445; 62,40000;      0,23568;22,00000;22,00000;3,65712;3
100,14658; 62,52000;      0,21318;22,00000;21,00000;3,65354;3
101,34935; 62,64000;      0,20357;22,00000;22,00000;3,64996;3
102,55427; 62,76000;      0,20009;22,00000;22,00000;3,64637;3
103,75855; 62,88000;      0,19772;22,00000;21,00000;3,64277;3
104,96185; 63,00000;      0,19634;22,00000;22,00000;3,63917;3
106,16450; 63,12000;      0,19537;22,00000;21,00000;3,63557;3
107,36659; 63,24000;      0,19488;22,00000;21,00000;3,63197;3
108,56832; 63,36000;      0,19406;22,00000;22,00000;3,62836;3
109,77042; 63,48000;      0,19354;22,00000;21,00000;3,62475;3
110,97225; 63,60000;      0,19348;22,00000;21,00000;3,62113;3
112,17404; 63,72000;      0,19292;22,00000;21,00000;3,61751;3
113,37483; 63,84000;      0,19241;22,00000;22,00000;3,61389;3
114,57569; 63,96000;      0,19206;22,00000;21,00000;3,61026;3
115,77803; 64,08000;      0,19210;22,00000;22,00000;3,60663;3
116,97989; 64,20000;      0,19209;22,00000;21,00000;3,60299;3
118,18202; 64,32000;      0,19182;22,00000;22,00000;3,59935;3
119,38437; 64,44000;      0,19156;22,00000;22,00000;3,59570;3
120,58678; 64,56000;      0,19161;22,00000;22,00000;3,59205;3
121,78799; 64,68000;      0,19131;23,00000;22,00000;3,58840;3
122,98878; 64,80000;      0,19062;22,00000;21,00000;3,58475;3
124,19031; 64,92000;      0,19071;22,00000;22,00000;3,58109;3
125,39191; 65,04000;      0,19073;22,00000;21,00000;3,57743;3
126,59375; 65,16000;      0,19076;22,00000;22,00000;3,57376;3
127,79487; 65,28000;      0,19060;22,00000;21,00000;3,57009;3
128,99531; 65,40000;      0,19019;22,00000;21,00000;3,56642;3
130,19479; 65,52000;      0,18995;22,00000;22,00000;3,56275;3
131,39525; 65,64000;      0,18974;22,00000;22,00000;3,55907;3
132,59698; 65,76000;      0,18994;22,00000;21,00000;3,55539;3
133,79847; 65,88000;      0,19015;22,00000;22,00000;3,55170;3
134,99998; 66,00000;      0,19017;22,00000;22,00000;3,54801;3
136,20071; 66,12000;      0,19007;23,00000;22,00000;3,54432;3
137,40115; 66,24000;      0,18992;22,00000;21,00000;3,54063;3
138,60230; 66,36000;      0,19011;22,00000;22,00000;3,53694;3
139,80169; 66,48000;      0,19013;22,00000;22,00000;3,53324;3
141,00069; 66,60000;      0,18967;22,00000;21,00000;3,52954;3
142,20143; 66,72000;      0,19030;22,00000;21,00000;3,52584;3
143,40167; 66,84000;      0,19027;23,00000;21,00000;3,52213;3
144,60178; 66,96000;      0,18993;22,00000;22,00000;3,51843;3
145,80305; 67,08000;      0,19048;22,00000;21,00000;3,51471;3
147,00425; 67,20000;      0,19059;22,00000;21,00000;3,51100;3
148,20463; 67,32000;      0,19064;22,00000;21,00000;3,50728;3
149,40382; 67,44000;      0,19053;22,00000;22,00000;3,50356;3
150,60319; 67,56000;      0,19004;22,00000;22,00000;3,49985;3
151,80480; 67,68000;      0,19095;22,00000;21,00000;3,49612;3
153,00488; 67,80000;      0,19136;22,00000;21,00000;3,49239;3
154,20395; 67,92000;      0,19088;22,00000;22,00000;3,48867;3
155,40469; 68,04000;      0,19130;22,00000;22,00000;3,48494;3
156,60507; 68,16000;      0,19143;22,00000;21,00000;3,48121;3
157,80601; 68,28000;      0,19150;22,00000;22,00000;3,47747;3
159,00701; 68,40000;      0,19188;22,00000;21,00000;3,47373;3
160,20721; 68,52000;      0,19185;22,00000;22,00000;3,46999;3
161,40789; 68,64000;      0,19198;22,00000;21,00000;3,46625;3
162,60843; 68,76000;      0,19242;22,00000;22,00000;3,46251;3
163,80944; 68,88000;      0,19247;22,00000;22,00000;3,45876;3
165,01011; 69,00000;      0,19263;22,00000;22,00000;3,45502;3
166,21029; 69,12000;      0,19245;22,00000;22,00000;3,45127;3
167,41096; 69,24000;      0,19298;22,00000;22,00000;3,44752;3
168,60960; 69,36000;      0,19305;22,00000;22,00000;3,44378;3
169,80854; 69,48000;      0,19286;22,00000;22,00000;3,44003;3
171,00945; 69,60000;      0,19349;22,00000;22,00000;3,43627;3
172,21042; 69,72000;      0,19415;22,00000;22,00000;3,43252;3
173,41115; 69,84000;      0,19433;22,00000;22,00000;3,42876;3
174,61138; 69,96000;      0,19467;22,00000;21,00000;3,42500;3
175,81173; 70,08000;      0,19481;22,00000;21,00000;3,42124;3
177,01275; 70,20000;      0,19495;22,00000;22,00000;3,41748;3
178,21347; 70,32000;      0,19484;22,00000;21,00000;3,41372;3
179,41385; 70,44000;      0,19410;22,00000;22,00000;3,40995;3
180,61419; 70,56000;      0,19347;22,00000;21,00000;3,40619;3
181,81409; 70,68000;      0,19286;22,00000;22,00000;3,40243;3
183,01383; 70,80000;      0,19216;22,00000;21,00000;3,39866;3
184,21402; 70,92000;      0,19221;22,00000;21,00000;3,39490;3
185,41352; 71,04000;      0,19189;22,00000;21,00000;3,39113;3
186,61258; 71,16000;      0,19175;22,00000;22,00000;3,38737;3
187,81251; 71,28000;      0,19212;22,00000;21,00000;3,38360;3
189,01226; 71,40000;      0,19194;22,00000;21,00000;3,37983;3
190,21212; 71,52000;      0,19200;22,00000;21,00000;3,37606;3
191,41293; 71,64000;      0,19228;22,00000;21,00000;3,37228;3
192,61408; 71,76000;      0,19278;22,00000;21,00000;3,36851;3
193,81502; 71,88000;      0,19317;22,00000;21,00000;3,36473;3
195,01515; 72,00000;      0,19319;22,00000;21,00000;3,36096;3
196,21460; 72,12000;      0,19305;22,00000;21,00000;3,35719;3
197,41394; 72,24000;      0,19309;22,00000;22,00000;3,35342;3
198,61322; 72,36000;      0,19310;22,00000;22,00000;3,34965;3
199,81391; 72,48000;      0,19369;22,00000;21,00000;3,34587;3
201,01512; 72,60000;      0,19449;22,00000;21,00000;3,34209;3
202,21622; 72,72000;      0,19510;22,00000;21,00000;3,33831;3
203,41677; 72,84000;      0,19608;22,00000;22,00000;3,33453;3
204,61642; 72,96000;      0,19706;22,00000;21,00000;3,33076;3
205,81637; 73,08000;      0,20020;22,00000;21,00000;3,32698;3
207,01651; 73,20000;      0,20581;22,00000;21,00000;3,32320;3
208,21604; 73,32000;      0,21598;22,00000;22,00000;3,31943;3
209,41623; 73,44000;      0,22042;22,00000;22,00000;3,31565;3
210,61744; 73,56000;      0,21864;22,00000;21,00000;3,31187;3
211,81811; 73,68000;      0,21972;22,00000;22,00000;3,30809;3
213,01762; 73,80000;      0,22293;22,00000;21,00000;3,30432;3
214,21731; 73,92000;      0,23104;22,00000;22,00000;3,30054;3
215,41676; 74,04000;      0,24673;22,00000;22,00000;3,29677;3
216,61752; 74,16000;      0,27713;22,00000;21,00000;3,29299;3
217,81774; 74,28000;      0,32948;22,00000;22,00000;3,28921;3
219,01627; 74,40000;      0,42166;22,00000;21,00000;3,28544;3
220,21507; 74,52000;      0,59416;22,00000;21,00000;3,28166;3
221,41364; 74,64000;      0,90430;22,00000;22,00000;3,27789;3
222,61036; 74,76000;      1,36089;22,00000;22,00000;3,27413;3
223,80509; 74,88000;      1,97856;22,00000;22,00000;3,27037;3
225,00297; 75,00000;      2,43858;22,00000;22,00000;3,26660;3
226,20453; 75,12000;      2,51490;22,00000;21,00000;3,26282;3
227,40685; 75,24000;      2,33119;22,00000;21,00000;3,25904;3
228,61228; 75,36000;      2,04394;22,00000;22,00000;3,25525;3
229,82068; 75,48000;      0,78534;22,00000;22,00000;3,25145;3
231,02369; 75,60000;      0,35829;22,00000;21,00000;3,24767;3
232,22278; 75,72000;      0,24866;22,00000;21,00000;3,24390;3
233,42191; 75,84000;      0,22059;22,00000;21,00000;3,24013;3
234,62232; 75,96000;      0,21354;22,00000;21,00000;3,23636;3
235,82202; 76,08000;      0,21168;22,00000;21,00000;3,23259;3
237,02224; 76,20000;      0,21072;22,00000;22,00000;3,22882;3
238,22411; 76,32000;      0,21118;22,00000;22,00000;3,22504;3
239,42536; 76,44000;      0,21137;22,00000;21,00000;3,22127;3
240,62499; 76,56000;      0,21047;22,00000;21,00000;3,21750;3
241,82383; 76,68000;      0,20973;22,00000;21,00000;3,21374;3
243,02332; 76,80000;      0,20908;22,00000;21,00000;3,20998;3
244,22509; 76,92000;      0,20975;22,00000;21,00000;3,20620;3
245,42632; 77,04000;      0,20985;22,00000;21,00000;3,20244;3
246,62634; 77,16000;      0,20913;22,00000;22,00000;3,19867;3
247,82697; 77,28000;      0,20878;22,00000;21,00000;3,19491;3
249,02919; 77,40000;      0,20895;22,00000;22,00000;3,19114;3
250,22983; 77,52000;      0,20900;22,00000;22,00000;3,18738;3
251,42848; 77,64000;      0,20783;22,00000;21,00000;3,18362;3
252,62907; 77,76000;      0,20757;22,00000;21,00000;3,17986;3
253,83031; 77,88000;      0,20816;22,00000;21,00000;3,17610;3
255,02890; 78,00000;      0,20745;22,00000;22,00000;3,17235;3
256,22741; 78,12000;      0,20613;22,00000;21,00000;3,16860;3
257,42768; 78,24000;      0,20643;22,00000;22,00000;3,16484;3
258,62863; 78,36000;      0,20700;22,00000;22,00000;3,16109;3
259,82818; 78,48000;      0,20608;22,00000;21,00000;3,15734;3
261,02702; 78,60000;      0,20577;22,00000;22,00000;3,15359;3
262,22770; 78,72000;      0,20566;22,00000;21,00000;3,14984;3
263,42880; 78,84000;      0,20626;22,00000;21,00000;3,14609;3
264,62829; 78,96000;      0,20522;22,00000;22,00000;3,14234;3
265,82774; 79,08000;      0,20468;22,00000;22,00000;3,13860;3
267,02791; 79,20000;      0,20453;22,00000;22,00000;3,13486;3
268,22758; 79,32000;      0,20471;22,00000;21,00000;3,13111;3
269,42645; 79,44000;      0,20439;22,00000;22,00000;3,12738;3
270,62552; 79,56000;      0,20360;22,00000;22,00000;3,12364;3
271,82594; 79,68000;      0,20385;22,00000;22,00000;3,11990;3
273,02526; 79,80000;      0,20381;22,00000;22,00000;3,11616;3
274,22328; 79,92000;      0,20255;22,00000;21,00000;3,11243;3
275,42437; 80,04000;      0,20274;22,00000;21,00000;3,10870;3
276,62659; 80,16000;      0,20352;22,00000;21,00000;3,10496;3
277,82755; 80,28000;      0,20361;22,00000;22,00000;3,10122;3
279,02670; 80,40000;      0,20239;22,00000;21,00000;3,09749;3
280,22681; 80,52000;      0,20265;22,00000;21,00000;3,09377;3
281,42727; 80,64000;      0,20258;22,00000;22,00000;3,09004;3
282,62674; 80,76000;      0,20207;22,00000;21,00000;3,08631;3
283,82713; 80,88000;      0,20172;22,00000;21,00000;3,08259;3
285,02665; 81,00000;      0,20200;22,00000;22,00000;3,07887;3
286,22408; 81,12000;      0,20070;22,00000;22,00000;3,07516;3
287,42346; 81,24000;      0,20040;22,00000;22,00000;3,07144;3
288,62397; 81,36000;      0,20086;22,00000;22,00000;3,06772;3
289,82350; 81,48000;      0,20007;22,00000;22,00000;3,06401;3
291,02261; 81,60000;      0,19946;22,00000;22,00000;3,06030;3
292,22300; 81,72000;      0,19920;22,00000;22,00000;3,05658;3
293,42344; 81,84000;      0,19959;22,00000;22,00000;3,05287;3
294,62233; 81,96000;      0,19858;22,00000;21,00000;3,04917;3
295,82278; 82,08000;      0,19876;22,00000;22,00000;3,04546;3
297,02357; 82,20000;      0,19889;22,00000;22,00000;3,04175;3
298,22389; 82,32000;      0,19879;22,00000;22,00000;3,03805;3
299,42424; 82,44000;      0,19862;22,00000;22,00000;3,03434;3
300,07697; 82,62167;      0,14621;22,00000;22,00000;3,03233;4
297,57051; 82,86167;     -0,27978;22,00000;22,00000;3,04006;4
295,02688; 83,10167;     -0,29969;23,00000;21,00000;3,04792;4
292,49136; 83,34167;     -0,29948;22,00000;22,00000;3,05575;4
289,96851; 83,58167;     -0,29849;22,00000;21,00000;3,06356;4
287,46469; 83,82167;     -0,29599;22,00000;22,00000;3,07131;4
284,97326; 84,06167;     -0,29468;22,00000;21,00000;3,07904;4
282,49571; 84,30167;     -0,29250;22,00000;22,00000;3,08672;4
280,02679; 84,54167;     -0,29148;22,00000;21,00000;3,09439;4
277,56954; 84,78167;     -0,28968;22,00000;21,00000;3,10202;4
275,11929; 85,02167;     -0,28827;22,00000;21,00000;3,10965;4
272,67397; 85,26167;     -0,28795;22,00000;22,00000;3,11726;4
270,23772; 85,50167;     -0,28589;23,00000;22,00000;3,12485;4
267,80385; 85,74167;     -0,28551;22,00000;21,00000;3,13243;4
265,37697; 85,98167;     -0,28364;22,00000;21,00000;3,14001;4
262,95097; 86,22167;     -0,28346;22,00000;22,00000;3,14758;4
260,53149; 86,46167;     -0,28169;22,00000;21,00000;3,15514;4
258,11157; 86,70167;     -0,28156;22,00000;21,00000;3,16271;4
255,69674; 86,94167;     -0,27956;22,00000;21,00000;3,17026;4
253,28187; 87,18167;     -0,27916;22,00000;21,00000;3,17782;4
250,87039; 87,42167;     -0,27785;22,00000;21,00000;3,18537;4
248,45762; 87,66167;     -0,27812;22,00000;22,00000;3,19293;4
246,04754; 87,90167;     -0,27731;22,00000;22,00000;3,20049;4
243,63541; 88,14167;     -0,27814;22,00000;21,00000;3,20805;4
241,23003; 88,38167;     -0,27595;22,00000;21,00000;3,21560;4
238,82297; 88,62167;     -0,27557;22,00000;22,00000;3,22316;4
236,41729; 88,86167;     -0,27476;22,00000;21,00000;3,23072;4
234,01154; 89,10167;     -0,27429;22,00000;21,00000;3,23828;4
231,60680; 89,34167;     -0,27367;22,00000;22,00000;3,24583;4
229,20333; 89,58167;     -0,27303;22,00000;22,00000;3,25339;4
226,80107; 89,82167;     -0,27135;22,00000;22,00000;3,26094;4
224,39789; 90,06167;     -0,27093;22,00000;21,00000;3,26850;4
221,99423; 90,30167;     -0,27089;22,00000;22,00000;3,27607;4
219,59433; 90,54167;     -0,26920;22,00000;21,00000;3,28362;4
217,20364; 90,78167;     -2,39199;22,00000;22,00000;3,29114;4
214,80177; 91,02167;     -2,80778;22,00000;22,00000;3,29870;4
212,39434; 91,26167;     -2,08735;22,00000;22,00000;3,30628;4
209,98318; 91,50167;     -0,52039;22,00000;22,00000;3,31387;4
207,58116; 91,74167;     -0,31065;22,00000;21,00000;3,32143;4
205,17803; 91,98167;     -0,28428;22,00000;21,00000;3,32899;4
202,77895; 92,22167;     -0,26204;22,00000;21,00000;3,33654;4
200,37672; 92,46167;     -0,25289;22,00000;22,00000;3,34410;4
197,97593; 92,70167;     -0,24820;22,00000;22,00000;3,35165;4
195,57689; 92,94167;     -0,24526;22,00000;22,00000;3,35919;4
193,17561; 93,18167;     -0,24401;22,00000;21,00000;3,36674;4
190,77669; 93,42167;     -0,24175;22,00000;22,00000;3,37428;4
188,37415; 93,66167;     -0,24175;22,00000;22,00000;3,38183;4
185,97480; 93,90167;     -0,23972;22,00000;22,00000;3,38937;4
183,57351; 94,14167;     -0,23962;23,00000;22,00000;3,39691;4
181,17513; 94,38167;     -0,23777;22,00000;22,00000;3,40443;4
178,77303; 94,62167;     -0,23697;22,00000;22,00000;3,41196;4
176,37243; 94,86167;     -0,23541;22,00000;22,00000;3,41949;4
173,96967; 95,10167;     -0,23651;22,00000;21,00000;3,42701;4
171,57133; 95,34167;     -0,23486;22,00000;21,00000;3,43452;4
169,17152; 95,58167;     -0,23255;22,00000;21,00000;3,44202;4
166,77011; 95,82167;     -0,23111;22,00000;21,00000;3,44952;4
164,37103; 96,06167;     -0,23225;22,00000;21,00000;3,45701;4
161,96990; 96,30167;     -0,23062;22,00000;21,00000;3,46450;4
159,57102; 96,54167;     -0,22669;22,00000;22,00000;3,47198;4
157,16900; 96,78167;     -0,22583;22,00000;21,00000;3,47945;4
154,77251; 97,02167;     -0,22355;22,00000;21,00000;3,48690;4
152,37028; 97,26167;     -0,22358;22,00000;22,00000;3,49436;4
149,96895; 97,50167;     -0,22226;22,00000;21,00000;3,50181;4
147,56702; 97,74167;     -0,22120;22,00000;22,00000;3,50925;4
145,16780; 97,98167;     -0,22002;22,00000;22,00000;3,51668;4
142,76700; 98,22167;     -0,21909;22,00000;21,00000;3,52409;4
140,36900; 98,46167;     -0,21752;22,00000;22,00000;3,53149;4
137,97098; 98,70167;     -0,21615;22,00000;22,00000;3,53888;4
135,56918; 98,94167;     -0,21548;22,00000;22,00000;3,54627;4
133,16985; 99,18167;     -0,21390;22,00000;21,00000;3,55363;4
130,76993; 99,42167;     -0,21334;22,00000;22,00000;3,56099;4
128,36934; 99,66167;     -0,21198;22,00000;22,00000;3,56833;4
125,97003; 99,90167;     -0,21034;22,00000;22,00000;3,57566;4
123,57141;100,14167;     -0,20904;22,00000;21,00000;3,58297;4
121,17092;100,38167;     -0,20861;22,00000;22,00000;3,59028;4
118,77180;100,62167;     -0,20664;22,00000;21,00000;3,59756;4
116,37162;100,86167;     -0,20647;22,00000;22,00000;3,60483;4
113,97010;101,10167;     -0,20858;22,00000;22,00000;3,61209;4
111,57254;101,34167;     -0,20402;22,00000;22,00000;3,61932;4
109,17111;101,58167;     -0,20326;22,00000;21,00000;3,62655;4
106,77080;101,82167;     -0,20193;22,00000;22,00000;3,63376;4
104,37038;102,06167;     -0,20159;22,00000;22,00000;3,64094;4
101,97230;102,30167;     -0,20064;22,00000;22,00000;3,64810;4
 99,57029;102,54167;     -0,20249;22,00000;22,00000;3,65526;4
 97,17125;102,78167;     -0,20477;22,00000;22,00000;3,66239;4
 94,76898;103,02167;     -0,23856;23,00000;21,00000;3,66950;4
 92,37093;103,26167;     -0,24883;22,00000;22,00000;3,67658;4
 89,97079;103,50167;     -0,23343;22,00000;22,00000;3,68365;4
 87,57182;103,74167;     -0,21992;22,00000;21,00000;3,69070;4
 85,17162;103,98167;     -0,21140;22,00000;21,00000;3,69772;4
 82,77272;104,22167;     -0,20809;23,00000;22,00000;3,70472;4
 80,37243;104,46167;     -0,20114;22,00000;21,00000;3,71170;4
 77,97236;104,70167;     -0,19609;22,00000;22,00000;3,71865;4
 75,57395;104,94167;     -0,19127;22,00000;22,00000;3,72557;4
 73,17290;105,18167;     -0,18868;22,00000;22,00000;3,73248;4
 70,77128;105,42167;     -0,18581;22,00000;22,00000;3,73936;4
 68,37234;105,66167;     -0,18425;22,00000;21,00000;3,74621;4
 65,96977;105,90167;     -0,18181;22,00000;21,00000;3,75305;4
 63,57264;106,14167;     -0,17881;22,00000;21,00000;3,75984;4
 61,17390;106,38167;     -0,17616;22,00000;21,00000;3,76660;4
 58,77413;106,62167;     -0,17433;22,00000;22,00000;3,77335;4
 56,37372;106,86167;     -0,17213;23,00000;22,00000;3,78006;4
 53,97377;107,10167;     -0,17008;22,00000;22,00000;3,78674;4
 51,57408;107,34167;     -0,16698;22,00000;21,00000;3,79340;4
 49,17282;107,58167;     -0,16532;22,00000;22,00000;3,80002;4
 46,77341;107,82167;     -0,16299;22,00000;22,00000;3,80661;4
 44,37184;108,06167;     -0,16005;22,00000;21,00000;3,81318;4
 41,97243;108,30167;     -0,15823;22,00000;22,00000;3,81970;4
 39,57277;108,54167;     -0,15621;22,00000;21,00000;3,82619;4
 37,17505;108,78167;     -0,15408;22,00000;21,00000;3,83265;4
 34,77543;109,02167;     -0,15182;22,00000;21,00000;3,83907;4
 32,37575;109,26167;     -0,14999;22,00000;22,00000;3,84546;4
 29,97667;109,50167;     -0,14802;22,00000;22,00000;3,85182;4
 27,57784;109,74167;     -0,14597;22,00000;22,00000;3,85813;4
 25,18008;109,98167;     -0,14383;22,00000;22,00000;3,86441;4
 25,01100;110,00000;     -0,14366;22,00000;22,00000;3,86485;4